Impedance (Ohms)
7385.788201456991
7393.530902389355
7379.4083516898
7379.362083048214
7399.2088096957405
7383.125062051125
7337.135194576039
7359.587829415749
7354.186163249266
7325.263411847005
7376.475020357569
7316.193167303839
7245.473395710843
7812.442684777156
7451.95174562023
7338.864667261331
7447.143679287547
7410.080404069041
7386.036443940797
7357.969751665442
7385.131977591281
7365.132965766155
7365.024462535997
7317.013760158657
7337.281480188979
7324.0359905348905
7307.529956675896
7321.333511152213
7350.9574350804505
7305.427784992527
7344.684533548295
7320.726264221147
7293.44676765673
7338.736748203023
7320.604064580182
7295.037387510513
7319.372932647915
7305.309866930255
7277.828829429805
7317.849305029514
7303.983797694264
7299.883374054943
7318.79451260994
7303.094527293288
7289.135660906101
7275.277191593847
7271.012259137361
7273.034572691111
7277.187100154809
7256.648574170856
7265.761787124787
7264.280237928394
7256.888149191648
7245.34291663297
7250.382879046473
7239.107224142158
7226.094276706587
7250.529126720338
7246.744084144118
7243.676587457077
7238.797432243173
7253.474852379821
7216.378525578747
7204.13857729452
7227.1335912675995
7230.693369045557
7211.059559561204
7214.540978154095
7206.469041318064
7203.0928694199665
7177.901437873277
7200.984003815661
7193.710738066257
7183.684657599876
7164.790151226098
7121.662041108918
7404.587382639029
7211.017787854465
7190.156828233656
7184.559449111499
7204.126905024201
7178.194805733247
7153.192740833396
7201.747634777347
7175.99196890399
7173.408659745112
7173.252395641631
7164.819969898847
7163.944119684925
7172.243507942064
7147.860487745844
7151.770793484232
7136.006874665947
7117.4480960432975
7121.554643044021
7108.690104822454
7223.384224015714
7189.6413672268445
7174.478816373295
7177.754141919858
7177.680837523356
7170.949052248847
7155.546679341548
7138.28494692295
7124.17914042817
7133.03541527676
7133.642665010389
7114.8976779563845
7127.524872227472
7121.438568563338
7122.218938328618
7066.863344076712
7135.692426651884
7107.828196775357
7038.621125125428
7103.4507903168205
7106.02571377318
7106.644176080746
7117.266231271036
7111.540209434499
7099.802273013669
7091.883833635264
7098.658391456576
7090.5451400243755
7089.08041934147
7089.4600753613
7078.422128899221
7087.61453514106
7114.346514007658
7103.834057836409
7095.34884458171
7086.79425762197
7089.535722037058
7070.004031080802
7078.937530678559
7068.0979203867
7066.059190452688
7060.910474984584
7058.996342873398
7043.814432864458
7044.117698786204
7049.918480744087
7048.162885279235
7050.168481002085
7049.757027280313
7060.640194163072
7041.722032457045
7041.779519885379
7038.788086014524
7044.691791756857
7037.12476139718
7020.18595841342
7028.917298849385
7027.768438853142
7033.426029841853
7011.090927141399
7017.788464197443
7025.0343360413335
7023.787531196154
7009.429639190614
7029.769906682715
7011.782850010015
6994.551916232285
7029.746257886952
7013.90350873233
6955.738190087583
6956.19530869888
7105.835779408212
6999.4080698919515
6972.40267498218
6969.773129205392
6990.59852873877
6988.6332809961405
6980.822024740481
7002.150370726878
6974.430427529747
6973.331701114668
6980.5585957693265
6992.270787559749
6984.858285591556
6964.533135653058
6966.2225076758305
6973.92628273255
6970.4077043632515
6948.981804438893
6968.164707692737
6958.953435015075
6950.957393210898
6960.5617096160795
6955.872236114896
6951.43892892317
6961.5034501127175
6949.162005557215
6944.9790534602225
6945.555096337125
6956.81567112496
6936.612048479205
6935.216060858317
6913.893032813249
6925.040490373483
