Impedance (Ohms)
7375.462691276877
7389.490065995853
7389.615077334587
7376.495244987237
7378.136447940308
7370.66577263593
7370.4051516178815
7339.945900902869
7352.571314660749
7333.106872321521
7326.094621943259
7324.8355273762045
7232.170196778528
7739.341112970577
7454.704594517367
7364.861361042692
7387.82576870726
7405.428128327939
7387.2416161837145
7380.104322739882
7365.895848492224
7351.257495583068
7350.514519853145
7348.48808862138
7312.88830101914
7318.667454028625
7305.03358246909
7298.831099993007
7339.730531171152
7342.205996987146
7317.811976010859
7340.58461166985
7300.324357432359
7316.03721614798
7333.422541308282
7313.617649018844
7299.198333213236
7319.655269671018
7283.9320281694845
7302.333148257673
7297.399807337674
7316.347942997878
7292.985158505383
7298.597176961794
7295.759240421369
7300.653409551088
7287.49882255468
7273.145271756919
7275.41996831302
7264.609991953887
7243.602327485739
7266.236461432274
7265.022583323872
7230.523168161264
7250.456397652587
7248.126696898095
7213.531435370654
7245.436170078774
7228.422045292739
7227.9246443617885
7218.967157301614
7257.492760315647
7219.3051598565025
7184.330025294183
7260.112528433518
7223.6355528777885
7195.551006600832
7205.111902486608
7209.436271500852
7198.4567913306655
7156.076634207467
7198.399520441511
7193.987111494125
7170.410907205071
7144.269187543248
7117.4012964693575
7314.282163607352
7223.440415606246
7223.362816975266
7188.044598618208
7180.412328371009
7175.577146740997
7177.593401922892
7187.757118243402
7174.28785482781
7184.047743548627
7159.809767877114
7162.341815900233
7175.6356288886045
7160.056000195863
7147.893303435921
7135.4452278000335
7134.29567242613
7118.171006714835
7115.205280006497
7109.278959262274
7214.431707733788
7158.674656765797
7158.294178581217
7175.458564158341
7155.619307663477
7135.04293770502
7160.809908310434
7150.864431754629
7127.715175675261
7138.0255418282495
7142.619792534698
7137.188070363219
7121.929163953562
7112.865757861974
7119.020002184097
7078.409246875752
7198.128902434699
7209.588595847876
7042.990046257573
7104.4572260160185
7100.789032786441
7104.274482535993
7098.704992120695
7106.359365599432
7085.9165117512985
7078.179276704039
7101.005126620341
7081.902998009076
7067.640533154605
7079.6574248425995
7077.858206297583
7094.370051304513
7102.176188685973
7095.412913305521
7084.999197780186
7089.7840809443815
7076.423604337102
7059.419814789235
7081.863704873326
7074.855717017799
7045.687175935213
7058.11335795625
7049.570134418499
7036.798305445791
7058.11335795625
7054.788087654785
7037.368769581298
7053.461206818263
7039.891274336802
7041.954146064693
7048.626186672381
7036.677165343706
7045.6837715548445
7041.051332408487
7030.373681263412
7028.683421897555
7030.799530740038
7033.612653549742
7015.781694925252
7025.210085844167
7024.470939124011
7012.694017933064
7007.934694702541
7031.567315427946
7021.861812221143
7008.632140138405
6992.300816755626
7023.616473892792
7012.415769641286
6955.636067835651
6930.719181468739
7034.851991212713
6969.449527440832
6970.052260630818
6977.56866466881
6986.004154782033
6987.741482408065
6981.878967869658
6985.8130396244605
6993.59747303819
6982.629319829197
6967.026990819245
6989.123358564548
6983.885242369683
6963.9624206002345
6971.566806514061
6974.613401086804
6958.6986335974425
6970.151019693425
6966.840419182178
6944.378706519527
6955.883202225809
6965.612262488405
6956.479565098668
6950.038614665922
6946.7040707836395
6959.37245820083
6929.9098074412805
6946.130765413192
6948.840270353112
6921.729736177472
6928.698153333468
6926.112679527522
6928.254072271477
