Impedance (Ohms)
7388.662732320822
7380.003529874319
7361.435984366047
7365.1639099831145
7354.3674429004695
7353.542621354176
7346.618813507275
7348.307219827303
7349.179186928275
7327.671721274862
7307.489010353921
7288.259591415215
7196.016917364742
7849.418341402266
7394.712772817804
7359.224842132988
7392.842876692076
7402.131901749844
7397.304774764855
7368.737850504179
7355.024708788986
7353.408458311549
7343.049286392999
7324.433370807553
7305.075227898337
7319.906749590922
7301.351866130238
7297.823570461201
7312.871589254868
7308.345598874968
7312.859751824495
7309.162255865598
7284.1070379485545
7294.878407715258
7306.220548063036
7298.3916561692595
7286.869711279069
7281.9359057224665
7277.3781394395355
7289.17473644593
7283.433606140977
7287.0856972760175
7272.117435402357
7284.51004421051
7282.138664281142
7277.2050323213825
7260.028041433617
7261.952555432533
7256.691030496318
7257.393527759464
7250.896379729125
7256.488553180216
7245.037266517115
7241.205016575731
7240.560061741447
7241.176622679223
7224.424249310242
7216.012366685997
7227.44816190563
7222.2464251527
7210.638715541104
7235.393850415228
7191.6002764108325
7142.91878350052
7247.81791495043
7207.8573732418845
7210.534673039845
7176.587354329091
7189.1886021459395
7178.046942957849
7164.689455926756
7182.672945846051
7190.181934613754
7175.4957960002785
7159.4082434483635
7144.63065844166
7305.969689121211
7271.7203162826345
7197.041890120557
7181.232117958766
7175.138609093082
7175.6904722767395
7162.829637611525
7150.945490167861
7161.250074127464
7160.430745562401
7158.2010712502515
7147.502839036649
7156.02765482004
7145.8256277981145
7130.848314117427
7125.373365681523
7123.33505552236
7111.5100264536695
7118.814635395873
7100.575869567445
7123.877797289156
7153.600781313788
7156.077830430664
7157.426050734928
7142.51579037362
7148.158273094668
7132.214879262362
7136.316316908056
7111.268042853861
7104.72482264443
7130.645085210867
7119.218491053521
7124.2970873135455
7113.891777837887
7111.708528224063
7047.712265657651
7168.299827705048
7119.184119961506
7018.750179607635
7110.339505073017
7084.827365068074
7097.112534031318
7091.465668390551
7080.5608038417295
7079.23282748967
7069.521319524785
7074.572945996743
7073.479904649506
7082.872463898292
7068.83488889824
7064.843491796217
7068.426719040044
7065.917291009897
7067.289511436606
7068.134910040364
7066.113590646727
7065.044097244524
7074.479116803213
7060.464403980759
7061.836271047021
7057.649852558823
7052.437313708735
7053.130951947941
7046.470293773166
7034.16360746144
7043.052167946175
7036.100191716684
7032.357086400387
7035.162945782866
7035.275720397684
7027.8037688991235
7028.081792723441
7019.084453618919
7020.128649148107
7015.898151688957
7011.2457087613
7020.560032868112
7012.346084836256
7006.9107533366305
7010.299547209697
7012.845159830957
7005.068426231401
6997.541535452898
7007.407974290354
7002.60624657135
6994.003841332312
6998.791728059383
6980.188779544769
6997.97204306245
6942.387113826024
6919.508495853618
7030.263060100272
6943.073492777148
6963.731921089394
6964.368636487638
6957.98927709757
6966.865927392994
6972.968264031775
6973.186560952496
6965.352376709953
6968.141916165534
6970.637399981516
6963.902929491677
6958.882051795729
6964.082309437272
6970.53512262514
6962.63623904243
6958.20623017467
6945.073827923992
6953.239095158327
6954.582651654471
6942.448954663813
6939.385194377694
6944.612716165408
6932.03821712447
6937.1939373742935
6938.09522201024
6933.50923934081
6933.9191715419365
6932.116468226422
6923.0196785082335
6922.754527929834
6907.584391309736
6918.256930362864
