Impedance (Ohms)
7452.636951116572
7424.269277060084
7414.133144642239
7418.019898920759
7406.025912245268
7408.974256290228
7392.08242733404
7397.606414319401
7398.58440784174
7381.804061800481
7376.012734020897
7346.186187857711
7273.314070161242
7845.789447789808
7564.555646457392
7504.478096041387
7367.204741601856
7406.006215227389
7430.061660131699
7389.081476449044
7399.4578789298375
7394.6956377785045
7368.218920568164
7343.932359081942
7362.604920215304
7363.757041953129
7328.343204449741
7332.719825612266
7365.038143732407
7355.825532960683
7340.081816306147
7368.698597475102
7325.700121197491
7331.328353916878
7321.25639464252
7330.833186676448
7313.908005007314
7328.343321241416
7320.910529937661
7319.452107535688
7298.492164673935
7334.69155006014
7320.573049943762
7316.8396691166345
7314.487589762136
7302.923808823021
7301.243754973063
7280.447374031092
7277.182091065639
7287.429661033107
7267.037578559228
7274.364985786082
7289.483501281962
7287.026238927912
7265.814693597274
7258.089466565869
7238.245736433558
7243.438160600142
7261.281658860081
7257.225472394587
7224.884667241937
7304.405308785952
7274.258480180103
7172.215829979876
7246.893477357034
7243.306799040562
7222.304937885458
7213.807871630506
7212.8819085056975
7204.273855501716
7192.926247957999
7219.82646952136
7234.035024025144
7193.18077264287
7180.733143312065
7167.7273091185225
7306.280292316461
7303.665995363553
7236.636614732821
7225.3229428009845
7214.7774097133915
7198.764975129611
7183.135809437192
7176.26674376312
7211.790960225983
7179.131716464932
7181.235678669591
7170.862125041553
7179.320341770541
7170.51035600074
7162.711773127311
7137.4622097283
7149.533276267231
7128.709041553467
7129.830020113822
7100.789224030005
7156.154803217251
7182.097086703233
7170.443531205415
7163.533717722995
7157.8714478178545
7148.377094697922
7154.1040303535065
7149.399128011615
7140.196483832939
7120.998073074232
7149.8541782512375
7137.411820439955
7142.6526442342465
7135.969520870996
7118.77568815806
7106.455278430466
7105.6098755170515
7159.14622387166
7143.938217406739
7092.427357905433
7096.047821737596
7121.697498542919
7123.113613384024
7099.308357197861
7098.826773861083
7101.446343152339
7082.137231552666
7081.787291715428
7090.812225623517
7087.88012734733
7082.226305847681
7083.599318363439
7084.027487014468
7086.558188796241
7095.827027383562
7074.337571023658
7077.205971918048
7068.073358739214
7075.88848177017
7055.442355821085
7051.164149736359
7037.146354384176
7062.825872316806
7054.7407628145575
7044.576281378865
7044.484076346268
7038.639565368867
7042.958446937238
7038.313084804093
7043.740323284123
7050.336514587715
7037.458171829456
7038.754721862308
7031.997364925946
7032.402021924376
7011.803330758645
7019.280036732622
7020.393236245196
7012.514232388873
7022.950912985661
7024.533909241445
7003.232036363435
7000.820054993267
7011.868334283422
7008.359441741929
6992.940104317429
6991.646612823555
6984.646595879693
6973.729011308911
6994.591459613539
7060.091559176475
6946.246055648997
6924.75423691912
6970.6626483865675
6973.706728742228
6965.007451699338
6986.623904752922
6974.169493127551
6978.821555416091
6971.411903068888
6979.172995836674
6965.6678056391265
6957.6867643026835
6965.110428479663
6978.8484461970065
6955.4661070743205
6956.041088012207
6960.5396130725985
6949.834179006586
6943.692457058735
6934.138174773543
6945.755853249767
6949.170071916505
6947.962999781409
6940.898130441622
6943.067990290298
6933.316485547271
6934.267671086794
6916.071367178067
6932.264219384233
6919.684604580994
6913.328498435499
6901.7553573532605
6905.279591742615
