Impedance (Ohms)
7363.004560633928
7377.02771998934
7359.833155394664
7369.767985855668
7361.324614024835
7354.011529897669
7351.257495583068
7347.822778632491
7343.312750543054
7329.362237438421
7312.035868659137
7284.1696591906975
7207.29030097834
7832.475807542224
7417.185852797006
7316.499474175936
7432.220306526644
7394.545555284282
7392.305747229432
7364.587107515193
7347.13695888287
7337.246783450791
7343.43613793886
7321.144159655108
7326.100782876728
7309.596068489168
7298.903309839744
7294.295547677955
7326.913975801305
7318.655169645722
7302.51508093744
7319.059772506739
7291.021657338648
7302.3259377913655
7303.786839997365
7290.254849195111
7292.220078236672
7272.471702301269
7265.626475656214
7288.371193947946
7279.805867781201
7271.059257262712
7271.777575019693
7289.755059188289
7269.475238410909
7277.051332337857
7265.415237333247
7252.150953850776
7264.314364806596
7254.58260936427
7259.937698114893
7256.559309455525
7233.913901555001
7238.768323754998
7233.122026020547
7244.380388506543
7231.652022367821
7222.179708510222
7220.9998404704975
7221.167648880577
7210.454174468646
7231.552252404601
7232.657875868094
7145.41079661333
7231.304652195352
7211.725757261003
7201.137632554028
7178.240707393362
7189.9388241341585
7184.755876604405
7171.6633888305605
7189.7189208423815
7188.352968091643
7163.73854986634
7162.1527376422255
7141.364479261008
7277.780029806247
7256.539034849687
7201.19448122554
7202.971120887268
7182.05201249976
7174.463517847614
7154.9387756904325
7150.9805186724825
7175.279977779549
7174.347138284681
7151.394453941656
7158.5852794356415
7142.735283726346
7142.127417391125
7137.043611799676
7130.7375948170975
7126.205073689317
7109.834961396171
7096.980487495668
7082.913460963652
7125.61567553111
7155.441372202811
7162.123257524135
7156.188494545926
7148.085958425267
7136.690798654626
7135.310361729201
7136.429561218068
7115.228412164778
7100.8959828495035
7126.562391685762
7126.94565268843
7113.606714696153
7108.692087610764
7096.023624961963
7080.927945789575
7181.673092936105
7175.317886529518
7017.951485229697
7088.36758193747
7084.550044452334
7095.925737640389
7099.163871905725
7095.513302436731
7091.047577107099
7076.182450846319
7067.837667960983
7070.387573816449
7085.384468476683
7075.329431822397
7066.104754194098
7064.63739979066
7056.921069493123
7060.0293405763605
7057.380717877397
7072.137244752168
7070.502407556501
7076.645494897496
7073.438567061481
7060.410886154602
7056.481051008864
7040.43865137258
7053.22435076787
7043.0619342223135
7041.243018394777
7040.809178234662
7028.209536109903
7041.192360556748
7036.862827821547
7031.540594706317
7030.135802726796
7024.639404954831
7016.6090900044865
7017.7794796011085
7018.065629278947
7009.50496035199
7018.822107697273
7020.980445135975
7013.545976775711
7010.861831523424
6994.473501680217
6996.843980016465
6991.401873701393
7003.701906808743
6997.97204306245
6989.4456353299565
6994.150874161982
6977.467210945329
7005.289507106359
6950.038295874901
6934.314294701966
7061.805002614178
6962.70743735109
6979.201989015779
6969.051441562894
6955.491810093709
6966.049964091518
6975.3052546456875
6972.48608322015
6970.629720982799
6964.265832934098
6965.948008897605
6972.872383267609
6962.67101655904
6961.686269179072
6956.517926797875
6959.534602957963
6951.600759029654
6946.283830561793
6957.09073045621
6948.737117427622
6940.706902950107
6942.021285797236
6940.13029971167
6944.801225126776
6935.475141946299
6936.537943491435
6933.920576357398
6917.2484153565665
6924.3301645868105
6925.4825146166795
6920.540169897195
6911.2747166031995
6918.222892740427
