Impedance (Ohms)
7387.006075281659
7366.212046630227
7354.82120835165
7366.93774839766
7359.299971171924
7356.059403027406
7344.54993771953
7347.85009109784
7345.867691513288
7333.059128800679
7324.811176396496
7296.027535614086
7212.235117605747
7854.5079640935655
7381.011501214317
7325.765548002245
7352.457137968913
7414.399738440578
7379.707831016224
7380.058518132832
7355.044356046983
7355.453938046575
7331.857773529841
7323.605057274361
7327.748923923537
7313.718555703943
7304.631810070176
7314.931759603111
7324.436729029241
7319.895576293433
7309.149741180486
7321.914187514459
7296.364168087426
7297.280801579932
7298.387041553409
7300.417463883787
7301.646863073158
7297.939165521057
7277.043030071345
7280.997757704969
7291.247859050828
7291.074910499651
7284.09660123188
7296.715765130193
7273.8690046621505
7279.653605655921
7290.613429532892
7255.930830340018
7265.193274844824
7263.197687252647
7267.590143480856
7254.854341854114
7243.394492915075
7243.8308669161315
7246.5896862324835
7243.712297120388
7218.753465577151
7230.404241088657
7230.240476380793
7213.641778819126
7217.276718436625
7241.556114423009
7222.006039272791
7153.010620289512
7234.534047159815
7219.333654545325
7204.891935956405
7184.274565429182
7182.73424087816
7188.640277444266
7161.634075896426
7187.7137446087645
7180.974903582399
7168.99983673662
7153.072484105032
7146.643765256461
7278.114920667827
7258.860719446293
7196.1957738264555
7194.60111121797
7181.6163755860425
7171.58672450084
7159.641408654106
7138.250989733492
7170.094624088427
7168.9807683066065
7153.213225920421
7131.071769765311
7146.202713276192
7141.392385214013
7138.612217176535
7128.2610045213405
7118.816669491277
7115.399045525889
7109.784984331835
7088.0477650413995
7133.254380424481
7147.9445219584595
7145.137104327014
7144.800536897866
7146.932992039051
7145.799683843886
7140.500745374205
7137.511089436724
7125.389103798363
7092.785590760805
7119.6284341455885
7118.278208953923
7113.319699155495
7106.359195204786
7107.830498530943
7058.67077876143
7111.127179945504
7158.4318325727845
7016.70996436322
7130.536591674506
7088.178045411507
7101.930139357929
7088.191488116821
7080.831271828391
7080.948090208496
7079.311474262167
7075.148947810185
7071.482896770226
7079.935856285499
7074.000971631736
7069.553361612569
7070.403915360902
7065.303496945817
7061.193449662362
7061.264412836151
7069.102820247782
7065.866622186817
7073.156532982134
7072.151667053977
7065.616958057845
7059.898935393391
7050.2786093440445
7043.840152940936
7054.035358426865
7034.776469860906
7042.966243055487
7044.643943585616
7032.592341777909
7021.498480306675
7017.535677906963
7034.746365310593
7030.8879196208
7027.781211169787
7023.41281724917
7014.324938328817
7011.872835696102
7022.112497479923
7001.105968055216
7008.253778903995
7007.635097563032
7002.465160285558
7004.873926646503
6999.187870973539
6990.452368594789
6996.195146146189
6998.4525327704205
6988.0102418100605
6980.793394978976
6997.562461068894
6948.85182058056
6992.248407944434
7061.832446076055
6996.447584488025
6974.486725551977
6964.730189119814
6959.555729623881
6976.240257661238
6969.768366778742
6970.059837235623
6974.313788648215
6962.559013183221
6964.943441950151
6964.2328958630505
6961.8526810918
6953.039982967947
6955.623305366987
6948.342868657209
6949.514262748643
6949.7459032849165
6953.022426801846
6955.750813373385
6944.17741314847
6945.032851955985
6948.511371927636
6940.787551554708
6925.89139931344
6932.611994843288
6936.864569997418
6926.2379995527135
6927.842677179124
6920.061250238026
6932.497382138158
6911.07995171891
6916.775992073501
