Impedance (Ohms)
7417.405206813178
7424.779759102886
7410.8416150113735
7410.34682657521
7394.841601409375
7408.763783136136
7382.2756280521235
7375.514839679004
7368.249025243741
7368.277135936414
7350.092894819277
7352.662612660808
7359.738395948472
7369.038217494696
7425.829254755584
7463.711315144859
7407.066485373987
7425.593770178144
7402.690172418791
7392.261633053361
7388.004114545615
7372.929397292847
7394.005031662416
7356.297170171057
7353.035271163547
7338.924512124964
7343.509656281314
7307.034779318866
7360.584144007705
7348.898272226168
7336.441113585771
7376.478355385164
7342.260027214971
7291.363809104829
7348.454881240305
7335.579763313983
7324.837766558946
7329.322652231457
7323.100871239543
7310.550950830942
7353.721988871651
7324.771151750601
7311.436267412195
7339.608034453699
7301.559531565766
7306.858204383693
7313.083906811797
7292.044805223729
7292.450672633898
7294.03428393776
7288.672158016883
7298.947504523212
7288.542180718465
7263.902258040952
7274.116914011383
7261.334876546188
7253.703648007989
7252.27772615791
7266.73293244619
7243.010855727087
7252.133681638531
7259.507761918706
7228.303423598211
7205.9565933330605
7265.392475682577
7244.765394344765
7219.151124661298
7226.572731286086
7230.048930659676
7229.204193561754
7202.346594085156
7197.004808626607
7212.393431124649
7191.4883366008535
7208.978555906993
7179.78192045531
7215.187408785076
7252.438215851159
7247.870588587101
7243.369546751103
7235.194319437259
7210.427141971096
7200.368723093923
7192.668084201081
7192.517028558458
7211.176332802364
7201.192974108883
7157.683311000828
7206.601985158876
7174.189125382348
7182.22092420059
7180.490220922755
7148.138221595026
7132.208441005028
7142.954061893067
7135.762662205588
7138.548655132999
7227.499698048442
7193.251725413694
7178.812279853693
7171.5749032638705
7175.710208309861
7179.9370739336955
7161.6974499739445
7144.426443692092
7152.2315082297755
7152.027943797132
7148.836178089323
7158.14388507878
7149.180407720491
7135.56082413495
7104.4005521088175
7232.72632049615
7152.95308056198
7039.629135253138
7145.276555504807
7142.87647607468
7131.608080153236
7138.983151972673
7103.808462185544
7120.37769864057
7114.00977007703
7101.077041855326
7106.875334193286
7127.676318577588
7107.262608130155
7095.420270083436
7100.982770438113
7104.142503992553
7100.771480942858
7099.53338448879
7116.152108376245
7108.582823524116
7089.884421707689
7078.010928165352
7097.3741241962125
7060.396389341694
7085.256094221512
7091.086092168768
7081.054356971056
7064.9462934134235
7069.267871059412
7064.598414267924
7052.791623719856
7059.364337154449
7080.365909965682
7072.088079431514
7054.263691599224
7073.911787148452
7055.277333525084
7051.4635589926
7065.765957775661
7056.173266359995
7049.54387329488
7055.449859952156
7047.971880325237
7043.013165452309
7035.133104919367
7029.412107565789
7037.307418691048
7028.845163002846
7014.0184588851125
7031.533311041212
7009.40112611452
7020.7450591837305
6979.504048008945
6960.60188023008
7105.926155515932
6951.560923491349
7006.16144633396
7007.893596884235
6990.790584413376
7019.416271088227
7008.281154354577
6998.969483480071
6999.367284716357
7006.8025835112785
6998.366276958995
7000.64686235813
6988.8944848376495
7002.004238683259
6997.398721611356
6986.722195902111
6979.286811776089
6976.901171530603
6986.044848451903
6973.257560165735
6973.30495455504
6974.122020711692
6973.000298948217
6965.812436689827
6978.0446409062915
6957.60598494804
6951.384383339931
6956.383743543357
6959.530801779025
6936.282605522095
6964.153331610262
6942.929399475761
6930.966732302458
