Impedance (Ohms)
7453.659375061786
7433.182137175864
7400.940335843191
7421.2170360521195
7423.5438867860685
7419.323161027099
7402.1615574546695
7383.493938767236
7383.978158440016
7362.0563319924995
7373.813610415592
7328.930503572469
7273.0380205436695
7878.187287729522
7545.7363034087775
7524.15488737618
7406.066102364088
7385.904033675099
7420.797025134879
7393.702656961178
7380.648890343801
7388.476223763678
7379.5049939485325
7368.319634976267
7356.067695193784
7352.2000475741315
7333.332964598629
7330.231778206168
7375.0275690816825
7361.353734608144
7357.564642514336
7332.667011909745
7320.733785473656
7337.63543848411
7336.934066143989
7325.81982278037
7320.839737469265
7332.44077064279
7330.422513682482
7332.196629526067
7309.138060865712
7336.743384473115
7309.025988310784
7321.024174773558
7305.456478634398
7313.978782344681
7308.258026788751
7272.6956567334055
7295.606689542267
7277.998137187839
7272.730724254904
7284.1549786080495
7278.438415548327
7286.62251642739
7277.227379097147
7262.973745010604
7242.685048802261
7249.132726540997
7255.123158407882
7259.2458364450495
7242.26718821143
7251.506600556479
7218.098130168656
7163.570306070191
7232.161575715202
7234.522855757634
7225.884474685124
7212.908367282902
7221.413382262973
7204.38663754855
7188.869475005657
7223.053163167396
7226.816866410542
7210.552650977382
7203.732899326358
7154.841929814874
7393.856262703827
7316.1175611239605
7227.416232457212
7234.721207461855
7199.64023808759
7186.822378746184
7185.0342351727795
7194.6891698506815
7200.198815789751
7187.908050506716
7171.168616612662
7169.131351818385
7171.018911449715
7173.130620561362
7178.068805702312
7144.693885233202
7132.144683819331
7126.337813144571
7134.483350416016
7094.036835153618
7149.472545321143
7170.003505735253
7164.121468147812
7167.782736349646
7171.808755703696
7137.352541559935
7149.805066211185
7155.680869508757
7142.8568366866775
7131.192125573373
7155.800322722379
7129.783621190014
7128.941047858332
7132.320219380404
7123.92206398763
7109.799296904539
7091.663046715732
7164.997361587212
7140.874438331528
7083.349457335643
7106.220583221613
7114.471709977094
7101.451635699493
7100.985830587465
7093.6591975046795
7091.642895379575
7089.7029061846115
7086.70300416924
7084.8230593849785
7079.840318164016
7091.367017155187
7077.426631590403
7086.35627319491
7092.7460103192725
7094.052366538854
7082.643049529592
7081.16758280163
7069.498357694518
7076.69048549077
7062.163548545985
7058.831091955958
7058.912734812943
7058.950457232955
7041.916591842527
7044.567152006224
7049.07808341781
7040.396067730868
7038.439213992804
7040.7775461141755
7055.649145082668
7035.6346637226625
7038.080006801932
7029.225962303125
7031.59498562367
7026.492958818609
7034.942248100635
7017.931442897246
7018.580598137343
7023.6133481723145
7010.999376193901
7013.292993495344
7007.9601871519935
7002.602374379783
7003.824104521474
7011.672715355322
6992.048664685897
6997.5565433100555
6988.038676914685
6995.877482584135
6992.00470114988
7100.587959352115
6926.3379449300655
6935.389352520152
7004.6477040666605
6961.4762187132055
6978.220376472566
6967.908993555467
6981.156744494207
6975.433102830376
6970.72289588823
6969.230476338941
6964.63001617903
6952.86841704515
6964.827940101281
6970.5520278288595
6968.227541175644
6959.31668542468
6954.676082934081
6953.019873188765
6938.729332167919
6942.525056511381
6943.941380809172
6946.395706799318
6938.891089211606
6940.790270318956
6938.895828280611
6924.7982250892355
6920.126371018952
6929.851560044897
6904.555538966659
6908.414047919329
6916.134549395372
6902.0157995795635
6906.657360901037
